Folder: xps-convert/src/xps_convert/test-files

Note: README.md
# xps-convert

Python script to convert Igor .pxt (one export format of Scienta SES) files to
KolXPD .exp files. Thus, this allows to create KolXPD files programmatically for
arbitrary amounts of spectra. You may find it useful if you need to import your
data to KolXPD after, e.g., a beamtime.

File: 2025-03-12_TiO2_2.11.xy
# Created by:        SpecsLab Prodigy, Version 4.120.1-r122398
#
# XY-Serializer Export Settings:
#   Comment Prefix:           #
#   Output Meta Data:         yes
#   Energy Axis:              Kinetic Energy
#   Count Rate:               Counts per Second
#   Separate Scan Data:       no
#   Separate Channel Data:    no
#   External Channel Data:    yes
#   Transmission Function:    no
#   Error Bar:                no
#   Operation Results:        yes
#   Time Zone Format:         UTC
#
# Group:                        50 W Al, before sputtering at x=0.4, z=10.0
#
# Region:                       Survey
# Spectrum ID:                  36
# Acquisition Date:             03/12/25 08:12:11 UTC
# Analysis Method:              XPS
# Analyzer:                     Analyzer Munich
# Analyzer Lens:                SmallArea:3.5kV
# Analyzer Slit:                5:7x20c\C:mesh
# Scan Mode:                    FixedAnalyzerTransmission
# Scan Variable:                Kinetic Energy
# Curves/Scan:                  1
# Values/Curve:                 1406
# Dwell Time:                   0.1
# Excitation Energy:            1486.31
# Kinetic Energy:               86.31
# Pass Energy:                  60
# Bias Voltage:                 100
# Detector Voltage:             1750
# Eff. Workfunction:            4.367
# Source:                       µFOCUS 450
# Comment:

# Cycle: 0
#
# Number of Scans: 1

# Cycle: 0, Curve: 0
#
# Acquisition Date:             03/12/25 08:12:11 UTC
# ColumnLabels:                 energy counts/s
#
86.31  5926.12
91.31  6080.51
96.31  6191.335
101.31  6612.585
106.31  6595.96
111.31  6627.1
116.31  6520.12
121.31  6566.47
126.31  7136.54
131.31  7468.78
136.31  8000.62
141.31  7644.75
146.31  8103.17
151.31  8627.84
156.31  8692.1
161.31  8696.38
166.31  9350.42
171.31  9359.96
176.31  9955
181.31  10249.745
186.31  10454.951
191.31  10877.377
196.31  10992.005
201.31  11246.05
206.31  11718.998
211.31  11887.254
216.31  12221.839
221.31  13109.736
226.31  13100.921
231.31  13239.26
236.31  13864.853
241.31  14313.923
246.31  14758.569
251.31  15187.586
256.31  15865.951
261.31  16226.652
266.31  16307.592
271.31  16565.441
276.31  16668.22
281.31  16953.656
286.31  17487.445
291.31  17884.821
296.31  18618.879
301.31  19658.568
306.31  19067.071
311.31  20117.576
316.31  20144.289
321.31  21214.21
326.31  22851.908
331.31  22124.391
336.31  21914.684
341.31  22448.795
346.31  23230.744
351.31  24756.659
356.31  24567.867
361.31  26007.995
366.31  24502.018
371.31  26467.962
376.31  28978.608
381.31  29642.167
386.31  25336.206
391.31  20652.135
396.31  20238.665
401.31  20794.015
406.31  20429.059
411.31  23060.08
416.31  23009.984
421.31  20337.941
426.31  18564.745
431.31  19318.351
436.31  19762.711
441.31  20016.72
446.31  20772.607
451.31  20514.288
456.31  20746.869
461.31  21232.192
466.31  21471.299
471.31  21642.225
476.31  22891.988
481.31  22302.828
486.31  23867.054
491.31  27504.932
496.31  23112.284
501.31  22337.603
506.31  22662.661
511.31  38687.826
516.31  23217.065
521.31  18219.987
526.31  16554.768
531.31  16957.915
536.31  16724.533
541.31  16869.327
546.31  17668.736
551.31  17535.083
556.31  17379.016
561.31  17770.917
566.31  18292.069
571.31  18049.743
576.31  17972.107
581.31  17969.87
586.31  19204.847
591.31  19000.895
596.31  19104.854
601.31  20193.166
606.31  19569.635
611.31  19060.427
616.31  20258.813
621.31  20912.923
626.31  20392.224
631.31  19943.984
636.31  20938.219
641.31  21371.686
646.31  21484.632
651.31  21676.932
656.31  21259.512
661.31  21694.352
666.31  21072.562
671.31  21246.495
676.31  22026.946
681.31  22421.03
686.31  22514.848
691.31  22615.195
696.31  23545.885
701.31  23648.631
706.31  23112.999
711.31  24386.163
716.31  24382.491
721.31  23758.067
726.31  24306.357
731.31  24420.059
736.31  24905.542
741.31  24692.787
746.31  24880.018
751.31  25757.59
756.31  26283.986
761.31  26336.6
766.31  26610.949
771.31  26467.348
776.31  27152.573
781.31  26479.393
786.31  27059.151
791.31  26542.42
796.31  27068.549
801.31  27020.176
806.31  27155.582
811.31  28559.052
816.31  28511.513
821.31  28534.343
826.31  27936.201
831.31  28606.957
836.31  29214.976
841.31  29505.932
846.31  29928.144
851.31  29559.941
856.31  30154.119
861.31  30106.362
866.31  30695.842
871.31  31571.759
876.31  30738.131
881.31  31389.043
886.31  31654.104
891.31  32279.298
896.31  33212.922
901.31  32493.011
906.31  35593.13
911.31  32298.607
916.31  34342.782
921.31  39901.574
926.31  29826.556
931.31  29079.789
936.31  27290.907
941.31  29605.387
946.31  23900.707
951.31  22211.826
956.31  96746.146
961.31  18367.497
966.31  18314.475
971.31  17915.15
976.31  17631.283
981.31  17412.229
986.31  17495.241
991.31  17795.029
996.31  18882.957
1001.31  20506.717
1006.31  21630.977
1011.31  21138.126
1016.31  16228.454
1021.31  45140.079
1026.31  72817.072
1031.31  3170.51
1036.31  2635.32
1041.31  2647.59
1046.31  2949.69
1051.31  2452.99
1056.31  2587.18
1061.31  2744.24
1066.31  2568.49
1071.31  2545.52
1076.31  2530.07
1081.31  2577.39
1086.31  2783.75
1091.31  2881.93
1096.31  3081.12
1101.31  2606.92
1106.31  2814.8
1111.31  2929.05
1116.31  2808.614
1121.31  2888.75
1126.31  2862.98
1131.31  2824.99
1136.31  2960.26
1141.31  2968.54
1146.31  2876.58
1151.31  3025.53
1156.31  3003.182
1161.31  3137.16
1166.31  3882.37
1171.31  3254.2
1176.31  3295.06
1181.31  3229.46
1186.31  2957.6
1191.31  3384.705
1196.31  3942.69
1201.31  7754.62
1206.31  2980.62
1211.31  3053.637
1216.31  3109.99
1221.31  3060.835
1226.31  3365.43
1231.31  3121.76
1236.31  2969.4
1241.31  3729.4
1246.31  2971.56
1251.31  2893.5
1256.31  2924.878
1261.31  2947.92
1266.31  2863.98
1271.31  2875.02
1276.31  3068.06
1281.31  2730.16
1286.31  2952.58
1291.31  2982.02
1296.31  2798.67
1301.31  3019.44
1306.31  3032.29
1311.31  3400.67
1316.31  3067.89
1321.31  2965.93
1326.31  3157.15
1331.31  3237.36
1336.31  3347.52
1341.31  3218.88
1346.31  3163.74
1351.31  3325.32
1356.31  3627.14
1361.31  3465.99
1366.31  3212.95
1371.31  3511.56
1376.31  3562.71
1381.31  3396.94
1386.31  3429.75
1391.31  3387.56
1396.31  4032.1
1401.31  3682.94
1406.31  3562.97
1411.31  3695.05
1416.31  3064.34
1421.31  4989.42
1426.31  3523.47
1431.31  3416.25
1436.31  3315.57
1441.31  2850.6
1446.31  4976.91
1451.31  1755.18
1456.31  955.9136
1461.31  1332.77
1466.31  1405.02
1471.31  345.497
1476.31  472.412
1481.31  1215.58
1486.31  0
1491.31  0

# Group:                        50 W Al, after sputtering, and annealing, at x=0.4, z=10.0
#
# Region:                       Survey
# Spectrum ID:                  39
# Acquisition Date:             03/12/25 12:30:34 UTC
# Analysis Method:              XPS
# Analyzer:                     Analyzer Munich
# Analyzer Lens:                SmallArea:3.5kV
# Analyzer Slit:                5:7x20c\C:mesh
# Scan Mode:                    FixedAnalyzerTransmission
# Scan Variable:                Kinetic Energy
# Curves/Scan:                  1
# Values/Curve:                 1406
# Dwell Time:                   0.1
# Excitation Energy:            1486.31
# Kinetic Energy:               86.31
# Pass Energy:                  60
# Bias Voltage:                 100
# Detector Voltage:             1750
# Eff. Workfunction:            4.367
# Source:                       µFOCUS 450
# Comment:                      Annealed in O2 (1E-6 mbar) at 900K for 10 mins and 1100K for 20 mins

# Cycle: 0
#
# Number of Scans: 1

# Cycle: 0, Curve: 0
#
# Acquisition Date:             03/12/25 12:30:34 UTC
# ColumnLabels:                 energy counts/s
#
86.31  6034.78
91.31  6263.68
96.31  6719.94
101.31  6499.08
106.31  6852.64
111.31  6583.87
116.31  6752.81
121.31  7364.97
126.31  7341.06
131.31  7791.882
136.31  8006.13
141.31  7977.53
146.31  8301.92
151.31  8522.7
156.31  8304.99
161.31  8895.553
166.31  9138.11
171.31  9397.21
176.31  9674.7
181.31  9885.32
186.31  10639.566
191.31  10821.104
196.31  11111.622
201.31  11729.24
206.31  11777.494
211.31  12406.791
216.31  12458.097
221.31  12816.862
226.31  13145.076
231.31  13872.493
236.31  13820.81
241.31  14352.693
246.31  14490.776
251.31  14944.282
256.31  15644.031
261.31  15853.368
266.31  16375.155
271.31  16935.321
276.31  17320.894
281.31  17141.247
286.31  18201.148
291.31  19046.481
296.31  17973.823
301.31  19406.402
306.31  19801.808
311.31  20423.146
316.31  20706.081
321.31  21058.554
326.31  22384.429
331.31  22772.513
336.31  23196.087
341.31  23488.461
346.31  23739.466
351.31  26874.345
356.31  26519.78
361.31  26616.495
366.31  26769.411
371.31  29175.577
376.31  32950.899
381.31  35557.951
386.31  28048.865
391.31  22252.985
396.31  21878.077
401.31  22373.913
406.31  21577.746
411.31  25521.259
416.31  25183.931
421.31  21947.879
426.31  19867.96
431.31  19866.789
436.31  20000.28
441.31  21024.73
446.31  21439.568
451.31  21898.354
456.31  21750.536
461.31  22314.385
466.31  22172.516
471.31  21841.775
476.31  23524.178
481.31  22971.474
486.31  24305.996
491.31  28446.862
496.31  23977.82
501.31  23345.504
506.31  24901.136
511.31  46043.689
516.31  25346.382
521.31  19555.474
526.31  17147.68
531.31  17068.185
536.31  17619.485
541.31  17749.013
546.31  17431.143
551.31  17755.783
556.31  18687.57
561.31  18922.207
566.31  18443.004
571.31  19124.429
576.31  19008.361
581.31  19195.473
586.31  19441.556
591.31  19844.436
596.31  19368.339
601.31  20669.201
606.31  20385.845
611.31  21048.406
616.31  21515.548
621.31  21955.331
626.31  20986.717
631.31  21431.934
636.31  21265.912
641.31  21692.447
646.31  22118.213
651.31  22525.075
656.31  23181.947
661.31  22766.127
666.31  22754.491
671.31  22390.917
676.31  23093.695
681.31  23003.526
686.31  23778.469
691.31  24869.916
696.31  24109.518
701.31  24158.881
706.31  24797.521
711.31  24957.291
716.31  24668.506
721.31  25124.519
726.31  25045.787
731.31  25958.725
736.31  26102.1
741.31  25890.913
746.31  26066.195
751.31  26011.7
756.31  27198.399
761.31  27247.27
766.31  27148.907
771.31  27787.39
776.31  27650.011
781.31  27668.58
786.31  28039.553
791.31  28774.173
796.31  28504.71
801.31  28938.267
806.31  28580.509
811.31  28687.981
816.31  29663.771
821.31  29969.748
826.31  30072.768
831.31  30766.227
836.31  30279.628
841.31  30276.402
846.31  31029.659
851.31  32130.262
856.31  30878.137
861.31  31708.458
866.31  31634.882
871.31  32514.776
876.31  32618.347
881.31  33401.124
886.31  31966.079
891.31  34445.243
896.31  34315.602
901.31  34808.329
906.31  38383.879
911.31  34938.848
916.31  36499.586
921.31  45219.358
926.31  32730.75
931.31  30008.835
936.31  28390.929
941.31  31146.079
946.31  25965.69
951.31  22597.482
956.31  117935.45
961.31  19089.333
966.31  19446.492
971.31  18842.308
976.31  19668.745
981.31  18442.609
986.31  17750.981
991.31  18776.938
996.31  20533.205
1001.31  21826.099
1006.31  23161.808
1011.31  23324.266
1016.31  19397.209
1021.31  53223.327
1026.31  82222.587
1031.31  3397.05
1036.31  3023.65
1041.31  2797.26
1046.31  2600.32
1051.31  2610.53
1056.31  2701.89
1061.31  2725.29
1066.31  2848.84
1071.31  2938.42
1076.31  2768.18
1081.31  2814.605
1086.31  2943.3
1091.31  3011.15
1096.31  2905.67
1101.31  2984.03
1106.31  2956.73
1111.31  3080.52
1116.31  3318.71
1121.31  3035.72
1126.31  3096.57
1131.31  2935.28
1136.31  3149.17
1141.31  3115.42
1146.31  2910.04
1151.31  3357.64
1156.31  3155.4
1161.31  3205.36
1166.31  4500.96
1171.31  3015.33
1176.31  3306.43
1181.31  3277.72
1186.31  2937.97
1191.31  2947.42
1196.31  3390.98
1201.31  3019.53
1206.31  3182.31
1211.31  3274.9
1216.31  3331.65
1221.31  3244.502
1226.31  2753.91
1231.31  3206.64
1236.31  3011.83
1241.31  4425.01
1246.31  2791.775
1251.31  3137.15
1256.31  3280.01
1261.31  2962.88
1266.31  3167.83
1271.31  2729.34
1276.31  3114.29
1281.31  3015.12
1286.31  3020.56
1291.31  3210.06
1296.31  3258.529
1301.31  3150
1306.31  2920.75
1311.31  3058.9
1316.31  3044.57
1321.31  3431.37
1326.31  3236.4
1331.31  3122.93
1336.31  3152.85
1341.31  3338.09
1346.31  3158.47
1351.31  3578.13
1356.31  3369.2
1361.31  3432.53
1366.31  3671.455
1371.31  3600.49
1376.31  3438.17
1381.31  3739.34
1386.31  3825.65
1391.31  3721.26
1396.31  4067.49
1401.31  3954.66
1406.31  3951.77
1411.31  4090.31
1416.31  3595.76
1421.31  4856.53
1426.31  3748.68
1431.31  3300.53
1436.31  3810.42
1441.31  2847.99
1446.31  5149.96
1451.31  2215.72
1456.31  1080.99
1461.31  1510.77
1466.31  1670.47
1471.31  205.115
1476.31  625.3429
1481.31  1290.39
1486.31  0
1491.31  0

# Region:                       Fine survey
# Spectrum ID:                  40
# Acquisition Date:             03/12/25 12:43:02 UTC
# Analysis Method:              XPS
# Analyzer:                     Analyzer Munich
# Analyzer Lens:                SmallArea:3.5kV
# Analyzer Slit:                5:7x20c\C:mesh
# Scan Mode:                    FixedAnalyzerTransmission
# Scan Variable:                Kinetic Energy
# Curves/Scan:                  1
# Values/Curve:                 1211
# Dwell Time:                   0.1
# Excitation Energy:            1486.31
# Kinetic Energy:               886.31
# Pass Energy:                  60
# Bias Voltage:                 100
# Detector Voltage:             1750
# Eff. Workfunction:            4.367
# Source:                       µFOCUS 450
# Comment:

# Cycle: 0
#
# Number of Scans: 5

# Cycle: 0, Curve: 0
#
# Acquisition Date:             03/12/25 12:43:02 UTC
# ColumnLabels:                 energy counts/s
#
886.31  29973.756
888.81  30732.411
891.31  31284.66
893.81  31454.846
896.31  31472.205
898.81  31528.177
901.31  32004.481
903.81  33630.557
906.31  35354.961
908.81  34540.932
911.31  32041.076
913.81  31560.577
916.31  33322.865
918.81  39472.222
921.31  41501.064
923.81  32251.903
926.31  29314.331
928.81  28348.791
931.31  27779.24
933.81  26736.169
936.31  26095.074
938.81  27865.275
941.31  29489.95
943.81  29087.932
946.31  23739.846
948.81  23196.582
951.31  21160.104
953.81  27993.479
956.31  105855.18
958.81  18580.274
961.31  17459.284
963.81  17053.376
966.31  17289.98
968.81  17266.401
971.31  17720.664
973.81  17816.141
976.31  17391.023
978.81  17646.94
981.31  17232.307
983.81  16644.808
986.31  16236.438
988.81  16923.632
991.31  16861.52
993.81  17746.111
996.31  18995.786
998.81  19236.423
1001.31  19826.067
1003.81  19879.254
1006.31  21970.571
1008.81  23006.883
1011.31  21775.417
1013.81  26886.325
1016.31  18349.696
1018.81  18696.076
1021.31  50539.738
1023.81  17637.3
1026.31  78901.055
1028.81  8265.35
1031.31  3146.89
1033.81  2762.93
1036.31  2570.83
1038.81  2576.3
1041.31  2531.6
1043.81  2579.19
1046.31  2553.41
1048.81  2375.68
1051.31  2564.47
1053.81  2634.21
1056.31  2518.5
1058.81  2540.59
1061.31  2560.89
1063.81  2578.39
1066.31  2596.33
1068.81  2702.72
1071.31  2636.54
1073.81  2740.17
1076.31  2686.89
1078.81  2575.218
1081.31  2659.8
1083.81  2809.12
1086.31  2733.99
1088.81  2717.79
1091.31  2662.605
1093.81  2650.52
1096.31  2639.16
1098.81  2661.67
1101.31  2643.1
1103.81  2742.72
1106.31  2685.555
1108.81  2705.42
1111.31  2747.29
1113.81  2908.38
1116.31  2794.67
1118.81  2781.1
1121.31  2860.38
1123.81  2922.85
1126.31  2816.66
1128.81  2804.31
1131.31  2824.67
1133.81  2896.33
1136.31  2871.34
1138.81  2846.27
1141.31  2930.97
1143.81  2876.08
1146.31  2927.678
1148.81  2854.72
1151.31  2978.69
1153.81  2907.19
1156.31  2938.13
1158.81  2834.95
1161.31  2908.46
1163.81  3221.22
1166.31  4145.78
1168.81  3132.66
1171.31  2984.92
1173.81  2854.85
1176.31  2852.55
1178.81  2781.44
1181.31  2819.67
1183.81  2912.331
1186.31  2875.79
1188.81  3049.89
1191.31  2922.74
1193.81  3038.36
1196.31  3069.88
1198.81  2945.38
1201.31  3046.69
1203.81  2888.29
1206.31  3146.588
1208.81  3021.78
1211.31  2942.03
1213.81  3050.18
1216.31  3088.69
1218.81  3066.64
1221.31  3072.4
1223.81  2958.763
1226.31  2872.89
1228.81  2863.37
1231.31  2881.83
1233.81  2939.32
1236.31  2845.09
1238.81  2803.92
1241.31  4444.981
1243.81  6705.2
1246.31  2735.83
1248.81  2750.56
1251.31  2812.76
1253.81  2795.16
1256.31  2834.36
1258.81  2804.93
1261.31  2826.07
1263.81  2781.38
1266.31  2864.39
1268.81  2865.37
1271.31  2795.14
1273.81  2822.6
1276.31  2829.54
1278.81  2814.5
1281.31  2768.92
1283.81  2921.39
1286.31  2939.23
1288.81  3001.92
1291.31  2701.38
1293.81  2855.11
1296.31  3009.16
1298.81  2917.13
1301.31  2929.63
1303.81  2991.36
1306.31  3041.2
1308.81  2891.16
1311.31  2986.29
1313.81  2981.65
1316.31  3004.68
1318.81  3055.36
1321.31  3100.37
1323.81  2944.98
1326.31  2993.12
1328.81  2954.03
1331.31  3025.9
1333.81  3154.07
1336.31  3004.94
1338.81  3077.54
1341.31  3204.02
1343.81  3158.51
1346.31  3126.85
1348.81  3042.44
1351.31  3095.94
1353.81  3143.15
1356.31  3250.736
1358.81  3200.8
1361.31  3239.37
1363.81  3251.52
1366.31  3306.13
1368.81  3312.83
1371.31  3371.35
1373.81  3357.7
1376.31  3480.53
1378.81  3318.28
1381.31  3420.028
1383.81  3359.69
1386.31  3405.56
1388.81  3457.96
1391.31  3549.08
1393.81  3620.4
1396.31  3566.45
1398.81  3716.4
1401.31  3623.39
1403.81  3594.87
1406.31  3449.02
1408.81  3668.843
1411.31  3577.75
1413.81  3266.11
1416.31  3398.43
1418.81  3502.77
1421.31  4716.03
1423.81  7734.17
1426.31  3656.46
1428.81  3020.02
1431.31  3142.69
1433.81  3730.773
1436.31  3606.49
1438.81  2715.231
1441.31  2647.59
[...]
# Analyzer Slit:                5:7x20c\C:mesh
# Scan Mode:                    FixedAnalyzerTransmission
# Scan Variable:                Kinetic Energy
# Curves/Scan:                  1
# Values/Curve:                 268
# Dwell Time:                   0.1
# Excitation Energy:            1025
# Kinetic Energy:               200
# Pass Energy:                  90
# Bias Voltage:                 0
# Detector Voltage:             1750
# Eff. Workfunction:            4.367
# Source:                       Low Energy Scannable Ion Source
# Comment:

# Cycle: 0
#
# Number of Scans: 5

# Cycle: 0, Curve: 0
#
# Acquisition Date:             03/18/25 16:40:00 UTC
# ColumnLabels:                 energy counts/s
#
200  35.9638
203  34.1832
206  44.265
209  47.216
212  46.2364
215  42.2637
218  53.6348
221  46.2028
224  44.7766
227  64.6822
230  43.6776
233  43.282
236  58.4126
239  61.3835
242  66.3082
245  63.93902
248  56.2774
251  62.4924
254  61.1598
257  72.8636
260  62.29652
263  71.9499
266  72.1494
269  84.3694
272  84.1682
275  87.13822
278  87.767
281  93.3225
284  81.0706
287  84.5922
290  90.7113
293  93.1595
296  93.0386
299  113.3503
302  132.038
305  108.54
308  99.5676
311  104.894
314  108.015
317  115.673
320  115.18
323  112.374
326  149.964
329  156.478
332  177.2309
335  155.141
338  139.308
341  121.784
344  119.859
347  137.561
350  149.304
353  179.368
356  179.994
359  196.9178
362  247.8523
365  274.951
368  346.483
371  351.54
374  395.991
377  444.872
380  482.42
383  519.202
386  579.156
389  670.984
392  695.467
395  743.677
398  812.958
401  793.841
404  787.145
407  698.798
410  682.513
413  559.093
416  561.022
419  565.661
422  469.526
425  444.446
428  496.761
431  477.164
434  432.291
437  439.3772
440  438.923
443  470.41
446  507.487
449  474.196
452  497.163
455  510.887
458  509.726
461  444.205
464  464.28
467  486.1251
470  460.792
473  443.936
476  455.394
479  384.466
482  402.604
485  382.794
488  364.613
491  348.371
494  349.719
497  288.09
500  283.002
503  290.255
506  332.139
509  326.3329
512  248.929
515  264.544
518  302.481
521  273.3037
524  318.087
527  310.544
530  324.1605
533  277.702
536  352.133
539  305.4171
542  323.636
545  331.421
548  341.231
551  325.96
554  348.138
557  330.998
560  297.758
563  299.5558
566  336.288
569  344.148
572  343.372
575  346.526
578  343.851
581  311.515
584  317.808
587  334.638
590  344.401
593  338.242
596  340.888
599  302.847
602  321.568
605  333.647
608  356.896
611  346.315
614  382.909
617  413.6564
620  384.988
623  353.345
626  369.316
629  372.7031
632  376.214
635  315.315
638  337.007
641  350.716
644  389.025
647  374.7
650  400.764
653  394.783
656  417.816
659  431.528
662  439.499
665  475.271
668  453.187
671  405.429
674  430.705
677  506.804
680  533.295
683  550.024
686  573.541
689  599.523
692  626.057
695  670.543
698  729.564
701  822.392
704  915.358
707  1017.82
710  1021.4
713  1201.53
716  1195.8
719  1213.31
722  1237.17
725  1257.91
728  1250.42
731  1128.44
734  1102.09
737  1018.28
740  794.519
743  703.64
746  580.758
749  500.836
752  436.86
755  341.556
758  308.079
761  250.9998
764  219.615
767  201.4015
770  167.167
773  170.3504
776  152.764
779  131.207
782  106.712
785  104.5611
788  73.9771
791  63.2575
794  56.7066
797  49.7676
800  42.6616
803  32.4273
806  34.4653
809  33.90651
812  26.4439
815  16.9081
818  19.1559
821  13.3136
824  12.6307
827  23.4469
830  23.9159
833  24.0077
836  18.2157
839  15.7316
842  10.9389
845  9.98098
848  8.03556
851  13.5246
854  10.9242
857  18.789
860  15.0783
863  17.3532
866  13.8317
869  7.376386
872  9.24724
875  12.0978
878  10.5258
881  15.5317
884  10.15997
887  11.658
890  6.72321
893  11.61
896  12.4736
899  14.099
902  17.821
905  26.5732
908  18.2715
911  25.6807
914  31.1866
917  25.2981
920  19.8543
923  28.6575
926  42.9644
929  35.7901
932  36.5431
935  49.5025
938  37.5402
941  26.0858
944  13.6912
947  4.91988
950  6.83756
953  6.86431
956  2.79426
959  0
962  0
965  4.39247
968  4.65378
971  2.556006
974  3.759902
977  0.63784
980  0.225848
983  7.492594
986  0.281558
989  1.253712
992  2.141086
995  0.605202
998  0
1001  0

# Region:                       Spectrum
# Spectrum ID:                  119
# Acquisition Date:             03/19/25 08:06:53 UTC
# Analysis Method:              ISS
# Analyzer:                     Analyzer Munich
# Analyzer Lens:                LargeArea:3.5kV
# Analyzer Slit:                5:7x20c\C:mesh
# Scan Mode:                    FixedAnalyzerTransmission
# Scan Variable:                Kinetic Energy
# Curves/Scan:                  1
# Values/Curve:                 268
# Dwell Time:                   0.1
# Excitation Energy:            1025
# Kinetic Energy:               200
# Pass Energy:                  90
# Bias Voltage:                 0
# Detector Voltage:             1750
# Eff. Workfunction:            4.367
# Source:                       Low Energy Scannable Ion Source
# Comment:

# Cycle: 0
#
# Number of Scans: 11

# Cycle: 0, Curve: 0
#
# Acquisition Date:             03/19/25 08:06:53 UTC
# ColumnLabels:                 energy counts/s
#
200  41.1025
203  39.9919
206  41.3682
209  38.2036
212  42.1908
215  35.1126
218  43.3783
221  44.4926
224  48.62971
227  49.8281
230  52.6232
233  45.0387
236  47.1444
239  50.3322
242  60.6297
245  49.3983
248  67.4453
251  72.4277
254  66.063
257  67.372
260  63.6443
263  82.7774
266  66.4221
269  74.3238
272  78.3935
275  79.9548
278  84.1464
281  80.4443
284  87.50494
287  81.2889
290  92.2355
293  87.6258
296  106.0524
299  100.289
302  93.9416
305  106.639
308  93.9051
311  98.1902
314  104.366
317  111.839
320  104.18
323  109.314
326  118.125
329  117.902
332  133.1024
335  133.951
338  134.936
341  145.315
344  136.07
347  154.694
350  166.011
353  183.2
356  188.761
359  215.5663
362  225.528
365  260.357
368  339.455
371  386.9878
374  405.706
377  483.143
380  527.252
383  605.9145
386  670.2509
389  717.123
392  732.659
395  764.886
398  755.965
401  728.178
404  695.998
407  734.602
410  658.695
413  606.688
416  587.857
419  551.253
422  507.155
425  487.268
428  454.887
431  479.338
434  480.775
437  480.19
440  460.451
443  456.2696
446  456.745
449  470.5892
452  464.003
455  465.856
458  490.941
461  443.784
464  458.145
467  413.824
470  443.493
473  380.744
476  393.26
479  402.447
482  376.3266
485  395.336
488  353.317
491  325.61
494  325.813
497  314.433
500  332.737
503  303.694
506  293.528
509  303.529
512  302.694
515  302.347
518  308.495
521  309.191
524  324.984
527  336.364
530  329.89
533  343.282
536  351.296
539  357.726
542  324.7138
545  319.113
548  319.621
551  334.758
554  345.957
557  324.46
560  332.554
563  326.986
566  361.723
569  352.995
572  350.33
575  344.534
578  326.874
581  363.174
584  330.335
587  359.717
590  365.109
593  364.039
596  383.439
599  361.365
602  367.955
605  374.076
608  355.909
611  364.863
614  351.079
617  354.171
620  371.2131
623  370.11
626  409.722
629  387.199
632  394.977
635  391.389
638  408.257
641  402.04
644  451.064
647  442.311
650  452.46
653  432.1319
656  429.514
659  446.707
662  455.118
665  452.461
668  457.582
671  486.17
674  545.352
677  558.437
680  568.643
683  610.86
686  656.745
689  689.566
692  754.112
695  792.796
698  867.847
701  1004.545
704  1058.02
707  1171.835
710  1188.176
713  1272.76
716  1372.26
719  1480.2
722  1482.45
725  1434.153
728  1305.63
731  1257.42
734  1163.91
737  1072.5
740  911.804
743  812.41
746  681.6452
749  523.923
752  474.561
755  391.455
758  330.271
761  276.492
764  247.18
767  192.2695
770  178.298
773  184.852
776  158.268
779  140.348
782  120.092
785  95.5921
788  89.4553
791  85.7422
794  86.8612
797  61.6486
800  63.2019
803  54.6172
806  45.4786
809  45.8758
812  45.4081
815  47.054
818  38.62344
821  33.93
824  45.519
827  41.3633
830  37.81
833  45.2946
836  30.3577
839  40.6934
842  42.8906
845  36.8509
848  32.2662
851  33.6059
854  43.3039
857  33.2845
860  36.8513
863  43.5792
866  29.0314
869  34.8155
872  23.2718
875  24.5705
878  27.0645
881  25.6202
884  25.68043
887  27.169
890  33.2585
893  45.4633
896  38.7826
899  38.8026
902  50.9324
905  61.7922
908  62.51181
911  61.1976
914  71.5883
917  86.0866
920  92.8758
923  102.7146
926  112.18
929  120.628
932  107.972
935  106.192
938  96.06516
941  59.7814
944  48.9365
947  29.0497
950  20.4674
953  9.74397
956  4.38837
959  4.26065
962  3.29067
965  3.38632
968  0.984261
971  0.848754
974  1.29788
977  1.15374
980  0.234161
983  1.28629
986  1.14726
989  1.87774
992  0.81507
995  0.652568
998  0.63372
1001  2.44142